#  lines used ... 
#  column 1: pixel number 
#  column 2: catalog wavelength (Angstroms)
	        572.63 0139.787
	        828.11 9784.503
	        918.40 9657.786
	       1300.66 9122.966
	       1730.84 521.4422
	       1915.23 264.5225
	       2143.37 948.1764
	       2370.18 7635.106
	       2513.32 7438.899
	       2553.65 383.9805
	       2655.85 7245.167
	       2728.19 147.0416
	       2889.96 6929.468
	       3049.32 6717.048
	       3078.65 6678.277
	       3289.11 6402.246
	       3341.35 6334.428
	       3393.85 6266.495
	       3432.12 6217.281
	       3490.02 6143.063
	       4041.10  5460.74
